Participant_Treatment,Trial_Name,Connection,Reaction_Time_ms,Total_Time_ms,Wrong_Guesses_Before_Correct_One
Ryan_Con1,Familiarization_Numbers_Asc,Start-1,28355.239899945445,28355.25120003149,0
Ryan_Con1,Familiarization_Numbers_Asc,1-2,827.3425000952557,29292.278800043277,0
Ryan_Con1,Familiarization_Numbers_Asc,2-3,1285.9923000214621,30676.987100043334,0
Ryan_Con1,Familiarization_Numbers_Asc,3-4,1107.1241999743506,31875.87570003234,0
Ryan_Con1,Familiarization_Numbers_Asc,4-5,2294.398199999705,34255.99770003464,0
Ryan_Con1,Familiarization_Numbers_Asc,5-6,767.7967000054196,35155.310600064695,0
Ryan_Con1,Familiarization_Numbers_Desc,Start-6,2821.5509000001475,2821.5627999743447,0
Ryan_Con1,Familiarization_Numbers_Desc,6-5,1074.199500028044,4083.1449000397697,0
Ryan_Con1,Familiarization_Numbers_Desc,5-4,1413.6306999716908,5642.597800004296,0
Ryan_Con1,Familiarization_Numbers_Desc,4-3,794.7462999727577,6538.567899959162,0
Ryan_Con1,Familiarization_Numbers_Desc,3-2,727.3958999430761,7437.427400029264,0
Ryan_Con1,Familiarization_Numbers_Desc,2-1,888.2334999507293,8439.72050002776,0
Ryan_Con1,Familiarization_Letters_Asc,Start-A,2612.7092000097036,2612.7235000021756,0
Ryan_Con1,Familiarization_Letters_Asc,A-B,707.5925000244752,3505.364500102587,0
Ryan_Con1,Familiarization_Letters_Asc,B-C,2046.895100036636,5675.044700037688,0
Ryan_Con1,Familiarization_Letters_Asc,C-D,1178.6504000192508,6988.990800105967,0
Ryan_Con1,Familiarization_Letters_Asc,D-E,827.559299999848,7951.95620006416,0
Ryan_Con1,Familiarization_Letters_Asc,E-F,971.1990999057889,9011.752500082366,0
Ryan_Con1,Familiarization_Letters_Desc,Start-F,1855.8137998916209,1855.8260999852791,0
Ryan_Con1,Familiarization_Letters_Desc,F-E,1400.6825999822468,3389.4863999448717,0
Ryan_Con1,Familiarization_Letters_Desc,E-D,1130.6244001025334,4674.103999976069,0
Ryan_Con1,Familiarization_Letters_Desc,D-C,1135.0011999020353,5941.947899991646,0
Ryan_Con1,Familiarization_Letters_Desc,C-B,1543.2310999603942,7596.293499926105,0
Ryan_Con1,Familiarization_Letters_Desc,B-A,1104.8673000186682,8826.091900002211,0
Ryan_Con1,Familiarization_Shapes_Asc,Start-triangle,1703.3150000497699,1703.3292999258265,0
Ryan_Con1,Familiarization_Shapes_Asc,triangle-square,942.5970999291167,2768.50739994552,0
Ryan_Con1,Familiarization_Shapes_Asc,square-pentagon,2591.1389000248164,5491.816999972798,0
Ryan_Con1,Familiarization_Shapes_Asc,pentagon-hexagon,1432.5510000344366,7081.644099904224,0
Ryan_Con1,Familiarization_Shapes_Asc,hexagon-heptagon,1324.4826000882313,8547.461499925703,0
Ryan_Con1,Familiarization_Shapes_Asc,heptagon-octagon,1300.553199951537,9961.152200005017,0
Ryan_Con1,Familiarization_Shapes_Desc,Start-octagon,1425.8576999418437,1425.8701000362635,0
Ryan_Con1,Familiarization_Shapes_Desc,octagon-heptagon,1125.064400024712,2670.982899959199,0
Ryan_Con1,Familiarization_Shapes_Desc,heptagon-hexagon,927.1361998980865,3764.570700004697,0
Ryan_Con1,Familiarization_Shapes_Desc,hexagon-pentagon,1730.2319000009447,5615.696299937554,0
Ryan_Con1,Familiarization_Shapes_Desc,pentagon-square,814.7157999919727,6542.876499937847,0
Ryan_Con1,Familiarization_Shapes_Desc,square-triangle,632.9925000900403,7328.259999980219,0
Ryan_Con1,Familiarization_Mixed_Asc,Start-1,6416.3779999362305,6416.395300067961,0
Ryan_Con1,Familiarization_Mixed_Asc,1-triangle,1612.9184000892565,8166.0948999924585,0
Ryan_Con1,Familiarization_Mixed_Asc,triangle-A,5350.0119999516755,13662.683399976231,0
Ryan_Con1,Familiarization_Mixed_Asc,A-2,4519.962899968959,18296.496900031343,0
Ryan_Con1,Familiarization_Mixed_Asc,2-square,3854.098799987696,22294.786900049075,0
Ryan_Con1,Familiarization_Mixed_Asc,square-B,5224.202699959278,27653.927800012752,0
Ryan_Con1,Familiarization_Mixed_Asc,B-3,3916.5751000400633,31716.535400017165,0
Ryan_Con1,Familiarization_Mixed_Asc,3-pentagon,4508.0326000461355,36368.57240006793,0
Ryan_Con1,Familiarization_Mixed_Asc,pentagon-C,7421.8142000027,43926.377800060436,1
Ryan_Con1,Familiarization_Mixed_Asc,C-4,1990.2105999644846,46047.38720005844,0
Ryan_Con1,Familiarization_Mixed_Asc,4-hexagon,20070.298299891874,66283.42660004273,2
Ryan_Con1,Familiarization_Mixed_Asc,hexagon-D,4060.294499970041,70478.70700003114,0
Ryan_Con1,Familiarization_Mixed_Asc,D-5,3301.8413999816403,73935.65500003751,0
Ryan_Con1,Familiarization_Mixed_Asc,5-heptagon,821.7789999907836,74934.15240000468,0
Ryan_Con1,Familiarization_Mixed_Asc,heptagon-E,2230.5310999508947,77314.95530006941,0
Ryan_Con1,Familiarization_Mixed_Asc,E-6,4810.547399916686,82248.81939997431,0
Ryan_Con1,Familiarization_Mixed_Asc,6-octagon,1369.8883999604732,83765.31100005377,0
Ryan_Con1,Familiarization_Mixed_Asc,octagon-F,1011.3693999592215,84902.7823000215,0
Ryan_Con1,Familiarization_Mixed_Desc,Start-6,10878.269199980423,10878.28039994929,1
Ryan_Con1,Familiarization_Mixed_Desc,6-octagon,2816.02709996514,13840.525700012222,0
Ryan_Con1,Familiarization_Mixed_Desc,octagon-F,4428.797600092366,18416.487799957395,0
Ryan_Con1,Familiarization_Mixed_Desc,F-5,3259.961700066924,21833.046299987473,0
Ryan_Con1,Familiarization_Mixed_Desc,5-heptagon,2855.528499931097,24820.575200021267,0
Ryan_Con1,Familiarization_Mixed_Desc,heptagon-E,3735.369399888441,28682.788799982518,0
Ryan_Con1,Familiarization_Mixed_Desc,E-4,2545.4020999604836,31381.711599999107,0
Ryan_Con1,Familiarization_Mixed_Desc,4-hexagon,3098.9883999573067,34650.76260000933,0
Ryan_Con1,Familiarization_Mixed_Desc,hexagon-D,4748.615099932067,39537.49040002003,1
Ryan_Con1,Familiarization_Mixed_Desc,D-3,3427.4363999720663,43133.93539993558,0
Ryan_Con1,Familiarization_Mixed_Desc,3-pentagon,9158.558700000867,52419.10820000339,2
Ryan_Con1,Familiarization_Mixed_Desc,pentagon-C,1249.877900001593,53781.25749994069,0
Ryan_Con1,Familiarization_Mixed_Desc,C-2,2781.6081000491977,56697.18380004633,0
Ryan_Con1,Familiarization_Mixed_Desc,2-square,2242.775100050494,59133.003899944015,0
Ryan_Con1,Familiarization_Mixed_Desc,square-B,2622.864400036633,61904.382599983364,0
Ryan_Con1,Familiarization_Mixed_Desc,B-1,2745.305299991742,64771.07110002544,0
Ryan_Con1,Familiarization_Mixed_Desc,1-triangle,1549.7460999758914,66477.30369993951,0
Ryan_Con1,Familiarization_Mixed_Desc,triangle-A,579.7593999886885,67184.77349996101,0
Ryan_Con1,Experimental_Ascending_1,Start-triangle,1103.524100035429,1103.5356998909265,0
Ryan_Con1,Experimental_Ascending_1,triangle-A,2543.810199946165,3789.956899941899,0
Ryan_Con1,Experimental_Ascending_1,A-1,889.8256999673322,4817.026299890131,0
Ryan_Con1,Experimental_Ascending_1,1-square,1070.5819999566302,6001.568699954078,0
Ryan_Con1,Experimental_Ascending_1,square-B,3030.1750999642536,9179.243999999017,0
Ryan_Con1,Experimental_Ascending_1,B-2,1418.5154000297189,10777.000499889255,0
Ryan_Con1,Experimental_Ascending_1,2-pentagon,1824.6576000237837,12761.089999927208,0
Ryan_Con1,Experimental_Ascending_1,pentagon-C,2995.405900059268,15900.120599893853,0
Ryan_Con1,Experimental_Ascending_1,C-3,1927.8370999963954,17964.901799918152,0
Ryan_Con1,Experimental_Ascending_1,3-hexagon,3826.2137999990955,21946.05299993418,1
Ryan_Con1,Experimental_Ascending_1,hexagon-D,7863.987599965185,29946.145799942315,0
Ryan_Con1,Experimental_Ascending_1,D-4,2726.621999987401,32819.03749995399,0
Ryan_Con1,Experimental_Ascending_1,4-heptagon,1668.3049999410287,34687.52289994154,0
Ryan_Con1,Experimental_Ascending_1,heptagon-E,2359.468499897048,37190.183399943635,0
Ryan_Con1,Experimental_Ascending_1,E-5,3215.3095999965444,40552.56219999865,0
Ryan_Con1,Experimental_Ascending_1,5-octagon,2294.564999989234,42991.65639991406,0
Ryan_Con1,Experimental_Ascending_1,octagon-F,845.1129000168294,43999.214499956,0
Ryan_Con1,Experimental_Ascending_1,F-6,839.6879999199882,44928.75069996808,0
Ryan_Con1,Experimental_Descending_1,Start-F,3110.365099972114,3110.3766000596806,0
Ryan_Con1,Experimental_Descending_1,F-6,1416.1992999725044,4680.173500091769,0
Ryan_Con1,Experimental_Descending_1,6-octagon,2255.721400026232,7036.526800016873,0
Ryan_Con1,Experimental_Descending_1,octagon-E,3933.457199949771,11137.701000086963,0
Ryan_Con1,Experimental_Descending_1,E-5,2120.0181000167504,13404.484100057743,0
Ryan_Con1,Experimental_Descending_1,5-heptagon,2294.011899968609,15855.552799999714,0
Ryan_Con1,Experimental_Descending_1,heptagon-D,4522.005899925716,20549.43610006012,0
Ryan_Con1,Experimental_Descending_1,D-4,3248.8092000130564,23954.965400043875,0
Ryan_Con1,Experimental_Descending_1,4-hexagon,3475.4965000320226,27580.726700020023,1
Ryan_Con1,Experimental_Descending_1,hexagon-C,2120.3780999640003,29849.229100043885,0
Ryan_Con1,Experimental_Descending_1,C-3,2004.1560999816284,31977.907699998468,0
Ryan_Con1,Experimental_Descending_1,3-pentagon,1574.822900001891,33740.29950005934,0
Ryan_Con1,Experimental_Descending_1,pentagon-B,3379.8188000218943,37266.22860005591,0
Ryan_Con1,Experimental_Descending_1,B-2,1211.6797999478877,38645.817000069655,0
Ryan_Con1,Experimental_Descending_1,2-square,2318.1059000780806,41119.43720001727,0
Ryan_Con1,Experimental_Descending_1,square-A,1789.1733999131247,43030.796200037,0
Ryan_Con1,Experimental_Descending_1,A-1,1375.5107000470161,44581.54959999956,0
Ryan_Con1,Experimental_Descending_1,1-triangle,466.47240000311285,45193.63680004608,0
Ryan_Con1,Experimental_Ascending_2,Start-A,4848.812900017947,4848.823699983768,0
Ryan_Con1,Experimental_Ascending_2,A-1,1644.7039999766275,6624.719599960372,0
Ryan_Con1,Experimental_Ascending_2,1-triangle,1776.0275000473484,8512.894799932837,0
Ryan_Con1,Experimental_Ascending_2,triangle-B,3926.3063999824226,12562.0929999277,0
Ryan_Con1,Experimental_Ascending_2,B-2,2468.851099954918,15145.604699966498,0
Ryan_Con1,Experimental_Ascending_2,2-square,1044.2778000142425,16329.907499952242,0
Ryan_Con1,Experimental_Ascending_2,square-C,4307.084100088105,20758.858799934387,0
Ryan_Con1,Experimental_Ascending_2,C-3,2736.9311000220478,23657.229400007054,0
Ryan_Con1,Experimental_Ascending_2,3-pentagon,2717.0090000145137,26468.005399918184,0
Ryan_Con1,Experimental_Ascending_2,pentagon-D,1811.3983999937773,28404.708799906075,0
Ryan_Con1,Experimental_Ascending_2,D-4,1552.8348999796435,30071.105899987742,0
Ryan_Con1,Experimental_Ascending_2,4-hexagon,3169.672799995169,33392.65459997114,0
Ryan_Con1,Experimental_Ascending_2,hexagon-E,4290.255300002173,37842.50889997929,0
Ryan_Con1,Experimental_Ascending_2,E-5,2092.2971999971196,40089.48939992115,0
Ryan_Con1,Experimental_Ascending_2,5-heptagon,1294.4439999992028,41473.98739994969,0
Ryan_Con1,Experimental_Ascending_2,heptagon-F,1208.5490999743342,42794.812400010414,0
Ryan_Con1,Experimental_Ascending_2,F-6,813.3025999413803,43762.56319996901,0
Ryan_Con1,Experimental_Ascending_2,6-octagon,1954.1281000711024,45839.09539994784,0
Ryan_Con1,Experimental_Descending_2,Start-octagon,2882.422599941492,2882.43420002982,0
Ryan_Con1,Experimental_Descending_2,octagon-F,5385.296600055881,8421.535899979062,0
Ryan_Con1,Experimental_Descending_2,F-6,1607.4403999373317,10170.517800026573,0
Ryan_Con1,Experimental_Descending_2,6-heptagon,2014.4451999804005,12319.726399960928,0
Ryan_Con1,Experimental_Descending_2,heptagon-E,3092.4874000484124,15567.0787000563,0
Ryan_Con1,Experimental_Descending_2,E-5,1089.7012000204995,16789.815500029363,0
Ryan_Con1,Experimental_Descending_2,5-hexagon,1586.0965999308974,18500.402600038797,0
Ryan_Con1,Experimental_Descending_2,hexagon-D,3612.085899920203,22265.676200040616,0
Ryan_Con1,Experimental_Descending_2,D-4,3099.2946999613196,25515.41840005666,0
Ryan_Con1,Experimental_Descending_2,4-pentagon,2911.098500015214,28587.637300021015,1
Ryan_Con1,Experimental_Descending_2,pentagon-C,6677.744499989785,35390.18370001577,1
Ryan_Con1,Experimental_Descending_2,C-3,876.962500042282,36399.5657999767,0
Ryan_Con1,Experimental_Descending_2,3-square,1268.1073000421748,37802.22529999446,0
Ryan_Con1,Experimental_Descending_2,square-B,3095.868599950336,41011.1387000652,0
Ryan_Con1,Experimental_Descending_2,B-2,1773.4224000014365,42950.61389997136,0
Ryan_Con1,Experimental_Descending_2,2-triangle,7688.995899981819,50760.49400004558,1
Ryan_Con1,Experimental_Descending_2,triangle-A,538.4517000056803,51457.63239997905,0
Ryan_Con1,Experimental_Descending_2,A-1,778.2154000597075,52371.51259998791,0
Ryan_Con1,Experimental_Ascending_3,Start-1,2673.7171000568196,2673.7285000272095,0
Ryan_Con1,Experimental_Ascending_3,1-triangle,2802.908100071363,5595.660399994813,0
Ryan_Con1,Experimental_Ascending_3,triangle-A,2203.6056999349967,7954.8915000632405,0
Ryan_Con1,Experimental_Ascending_3,A-2,2826.035700039938,10924.141900031827,0
Ryan_Con1,Experimental_Ascending_3,2-square,3782.7234000433236,14884.265100001357,0
Ryan_Con1,Experimental_Ascending_3,square-B,13564.290899899788,28594.01770005934,2
Ryan_Con1,Experimental_Ascending_3,B-3,6707.23389997147,35434.14820008911,1
Ryan_Con1,Experimental_Ascending_3,3-pentagon,2306.1375999823213,37897.867700085044,0
Ryan_Con1,Experimental_Ascending_3,pentagon-C,3208.517099963501,41230.82150006667,0
Ryan_Con1,Experimental_Ascending_3,C-4,4966.749100014567,46334.78959999047,1
Ryan_Con1,Experimental_Ascending_3,4-hexagon,18806.709199910983,65278.81010004785,7
Ryan_Con1,Experimental_Ascending_3,hexagon-D,2902.06719993148,68332.21810008399,0
Ryan_Con1,Experimental_Ascending_3,D-5,1451.585799921304,69920.58340006042,0
Ryan_Con1,Experimental_Ascending_3,5-heptagon,1890.8589000348002,71978.56459999457,0
Ryan_Con1,Experimental_Ascending_3,heptagon-E,4056.448800023645,76154.51750007924,0
Ryan_Con1,Experimental_Ascending_3,E-6,1716.7093000607565,78044.44820003118,0
Ryan_Con1,Experimental_Ascending_3,6-octagon,2535.5948000214994,80736.33310000878,2
Ryan_Con1,Experimental_Ascending_3,octagon-F,591.8987999903038,81485.65620009322,0
Ryan_Con1,Experimental_Descending_3,Start-6,5949.474999913946,5949.48770001065,0
Ryan_Con1,Experimental_Descending_3,6-octagon,5691.260199993849,11775.608199997805,0
Ryan_Con1,Experimental_Descending_3,octagon-F,5230.147000052966,17177.339499932714,0
Ryan_Con1,Experimental_Descending_3,F-5,5831.736500025727,23176.09880003147,0
Ryan_Con1,Experimental_Descending_3,5-heptagon,1358.0510000465438,24657.760299975052,0
Ryan_Con1,Experimental_Descending_3,heptagon-E,2635.40919998195,27441.11170002725,0
Ryan_Con1,Experimental_Descending_3,E-4,1799.4513000594452,29329.139999928884,0
Ryan_Con1,Experimental_Descending_3,4-hexagon,1486.480100080371,30943.05879995227,0
Ryan_Con1,Experimental_Descending_3,hexagon-D,2011.7667000740767,33070.321499952115,0
Ryan_Con1,Experimental_Descending_3,D-3,1532.9762999899685,34781.75520000514,0
Ryan_Con1,Experimental_Descending_3,3-pentagon,2930.897400015965,37837.41469995584,1
Ryan_Con1,Experimental_Descending_3,pentagon-C,2611.70150001999,40625.76999992598,0
Ryan_Con1,Experimental_Descending_3,C-2,2064.8930999450386,42844.74319999572,0
Ryan_Con1,Experimental_Descending_3,2-square,3283.727700007148,46262.632000027224,0
Ryan_Con1,Experimental_Descending_3,square-B,799.9506000196561,47207.62719993945,0
Ryan_Con1,Experimental_Descending_3,B-1,1822.439800016582,49176.11779994331,0
Ryan_Con1,Experimental_Descending_3,1-triangle,834.5818999223411,50101.57990001608,0
Ryan_Con1,Experimental_Descending_3,triangle-A,812.4965000897646,51028.87389995158,0
