Participant_Treatment,Trial_Name,Connection,Reaction_Time_ms,Total_Time_ms,Wrong_Guesses_Before_Correct_One
Vinh_Con1,Familiarization_Numbers_Asc,Start-1,13114.080099971034,13114.097399986349,0
Vinh_Con1,Familiarization_Numbers_Asc,1-2,3990.9245000453666,17219.05049995985,1
Vinh_Con1,Familiarization_Numbers_Asc,2-3,1805.4173999698833,19163.208499900065,0
Vinh_Con1,Familiarization_Numbers_Asc,3-4,1421.0461999755353,20707.92449999135,0
Vinh_Con1,Familiarization_Numbers_Asc,4-5,749.6371999150142,21551.242299959995,0
Vinh_Con1,Familiarization_Numbers_Asc,5-6,633.6593000451103,22276.428199955262,0
Vinh_Con1,Familiarization_Numbers_Desc,Start-6,4062.48099997174,4062.494400073774,0
Vinh_Con1,Familiarization_Numbers_Desc,6-5,705.1178000401706,4877.984400023706,0
Vinh_Con1,Familiarization_Numbers_Desc,5-4,560.5139000108466,5576.49600005243,0
Vinh_Con1,Familiarization_Numbers_Desc,4-3,801.5026000794023,6490.375800058246,0
Vinh_Con1,Familiarization_Numbers_Desc,3-2,723.2607000041753,7302.627400029451,0
Vinh_Con1,Familiarization_Numbers_Desc,2-1,878.6560000153258,8270.877600065432,0
Vinh_Con1,Familiarization_Letters_Asc,Start-A,2414.2880999716,2414.302400080487,0
Vinh_Con1,Familiarization_Letters_Asc,A-B,850.5610999418423,3344.4781000725925,0
Vinh_Con1,Familiarization_Letters_Asc,B-C,1664.925800054334,5099.739699973725,0
Vinh_Con1,Familiarization_Letters_Asc,C-D,1509.581599966623,6719.611500040628,0
Vinh_Con1,Familiarization_Letters_Asc,D-E,649.3490999564528,7460.354799986817,0
Vinh_Con1,Familiarization_Letters_Asc,E-F,1016.9481999473646,8591.561899986118,0
Vinh_Con1,Familiarization_Letters_Desc,Start-F,2599.766199942678,2599.781700060703,0
Vinh_Con1,Familiarization_Letters_Desc,F-E,4826.406099949963,7537.929899990559,0
Vinh_Con1,Familiarization_Letters_Desc,E-D,1794.5297999540344,9403.873400064185,0
Vinh_Con1,Familiarization_Letters_Desc,D-C,1541.8779000174254,11055.145499994978,0
Vinh_Con1,Familiarization_Letters_Desc,C-B,1312.2129999101162,12478.128400049172,0
Vinh_Con1,Familiarization_Letters_Desc,B-A,708.8764000218362,13278.473300044425,0
Vinh_Con1,Familiarization_Shapes_Asc,Start-triangle,132790.51910003182,132790.5332999071,1
Vinh_Con1,Familiarization_Shapes_Asc,triangle-square,2950.4846000345424,135896.2188999867,0
Vinh_Con1,Familiarization_Shapes_Asc,square-pentagon,1530.5730999680236,137537.5953000039,0
Vinh_Con1,Familiarization_Shapes_Asc,pentagon-hexagon,756.8698999239132,138396.49409998674,0
Vinh_Con1,Familiarization_Shapes_Asc,hexagon-heptagon,1035.7526999432594,139534.17339990847,0
Vinh_Con1,Familiarization_Shapes_Asc,heptagon-octagon,704.9344000406563,140351.21819993947,0
Vinh_Con1,Familiarization_Shapes_Desc,Start-octagon,3271.1408000905067,3271.154099958949,0
Vinh_Con1,Familiarization_Shapes_Desc,octagon-heptagon,1800.2722000237554,5161.972499918193,0
Vinh_Con1,Familiarization_Shapes_Desc,heptagon-hexagon,1718.7639999901876,6997.37739993725,0
Vinh_Con1,Familiarization_Shapes_Desc,hexagon-pentagon,2160.790599999018,9295.2532999916,0
Vinh_Con1,Familiarization_Shapes_Desc,pentagon-square,2011.6404000436887,11399.577599950135,0
Vinh_Con1,Familiarization_Shapes_Desc,square-triangle,927.0035999361426,12406.71020001173,0
Vinh_Con1,Familiarization_Mixed_Asc,Start-1,78402.27189997677,78402.28339994792,0
Vinh_Con1,Familiarization_Mixed_Asc,1-triangle,16398.76639994327,94890.76830004342,5
Vinh_Con1,Familiarization_Mixed_Asc,triangle-A,55710.09369997773,150735.12650001794,6
Vinh_Con1,Familiarization_Mixed_Asc,A-2,37926.88889999408,188824.96740005445,0
Vinh_Con1,Familiarization_Mixed_Asc,2-square,4188.942699925974,193127.58410000242,0
Vinh_Con1,Familiarization_Mixed_Asc,square-B,3257.363999960944,196520.70480003022,0
Vinh_Con1,Familiarization_Mixed_Asc,B-3,3309.4920999137685,199934.22649998683,0
Vinh_Con1,Familiarization_Mixed_Asc,3-pentagon,2427.448599948548,202486.36740003712,0
Vinh_Con1,Familiarization_Mixed_Asc,pentagon-C,4793.002500082366,207502.04379996285,0
Vinh_Con1,Familiarization_Mixed_Asc,C-4,6150.5345000186935,213742.45100002736,0
Vinh_Con1,Familiarization_Mixed_Asc,4-hexagon,4969.418699969538,218834.8529000068,0
Vinh_Con1,Familiarization_Mixed_Asc,hexagon-D,4591.1722999298945,223462.34770002775,0
Vinh_Con1,Familiarization_Mixed_Asc,D-5,6642.907300032675,230207.1864999598,0
Vinh_Con1,Familiarization_Mixed_Asc,5-heptagon,22400.7782000117,252854.38799997792,0
Vinh_Con1,Familiarization_Mixed_Asc,heptagon-E,11609.300800017081,264599.0538999904,0
Vinh_Con1,Familiarization_Mixed_Asc,E-6,3145.7383999368176,268053.80560003687,0
Vinh_Con1,Familiarization_Mixed_Asc,6-octagon,1077.251199982129,269387.25909998175,1
Vinh_Con1,Familiarization_Mixed_Asc,octagon-F,898.1493999017403,270373.57840000186,0
Vinh_Con1,Familiarization_Mixed_Desc,Start-6,16303.589900024235,16303.600499988534,0
Vinh_Con1,Familiarization_Mixed_Desc,6-octagon,2231.795600033365,18668.760400032625,0
Vinh_Con1,Familiarization_Mixed_Desc,octagon-F,5292.680499958806,24159.27860001102,0
Vinh_Con1,Familiarization_Mixed_Desc,F-5,5775.536400033161,30050.361100002192,0
Vinh_Con1,Familiarization_Mixed_Desc,5-heptagon,6751.167200040072,36915.65769992303,0
Vinh_Con1,Familiarization_Mixed_Desc,heptagon-E,7305.113199981861,44388.01500003319,0
Vinh_Con1,Familiarization_Mixed_Desc,E-4,9755.236699944362,54280.22449999116,0
Vinh_Con1,Familiarization_Mixed_Desc,4-hexagon,6264.115799916908,60877.09590001032,0
Vinh_Con1,Familiarization_Mixed_Desc,hexagon-D,5318.2982000289485,66339.07520002685,0
Vinh_Con1,Familiarization_Mixed_Desc,D-3,10543.608400039375,77045.17449997365,0
Vinh_Con1,Familiarization_Mixed_Desc,3-pentagon,5633.514299988747,82813.18860000465,0
Vinh_Con1,Familiarization_Mixed_Desc,pentagon-C,6390.568200033158,89371.08880002052,0
Vinh_Con1,Familiarization_Mixed_Desc,C-2,2609.4470999669284,92068.33889998961,0
Vinh_Con1,Familiarization_Mixed_Desc,2-square,2468.7720000511035,94795.18639994785,0
Vinh_Con1,Familiarization_Mixed_Desc,square-B,1891.962300054729,97103.50660001859,0
Vinh_Con1,Familiarization_Mixed_Desc,B-1,1293.4507000027224,98476.95759998169,0
Vinh_Con1,Familiarization_Mixed_Desc,1-triangle,1732.305800076574,100319.87589993514,0
Vinh_Con1,Familiarization_Mixed_Desc,triangle-A,1143.6790999723598,101520.14019992203,0
Vinh_Con1,Experimental_Ascending_1,Start-triangle,32016.652000020258,32016.663700109348,0
Vinh_Con1,Experimental_Ascending_1,triangle-A,4517.518400098197,36709.52040003613,0
Vinh_Con1,Experimental_Ascending_1,A-1,3747.6277999812737,40538.26729999855,0
Vinh_Con1,Experimental_Ascending_1,1-square,4144.894400029443,44785.08300008252,0
Vinh_Con1,Experimental_Ascending_1,square-B,4739.600299973972,49671.26240010839,0
Vinh_Con1,Experimental_Ascending_1,B-2,1785.0259999977425,51535.71010008454,0
Vinh_Con1,Experimental_Ascending_1,2-pentagon,4729.620099999011,56416.05750005692,0
Vinh_Con1,Experimental_Ascending_1,pentagon-C,5218.748400104232,61762.54240004346,1
Vinh_Con1,Experimental_Ascending_1,C-3,7344.936800072901,69192.86980002653,0
Vinh_Con1,Experimental_Ascending_1,3-hexagon,10677.484600106254,79997.32980004046,0
Vinh_Con1,Experimental_Ascending_1,hexagon-D,4835.815700003877,84986.94590001833,0
Vinh_Con1,Experimental_Ascending_1,D-4,30431.467600050382,115550.42700003833,2
Vinh_Con1,Experimental_Ascending_1,4-heptagon,18000.09129999671,133629.41100005992,0
Vinh_Con1,Experimental_Ascending_1,heptagon-E,5129.516100045294,138926.96730000898,0
Vinh_Con1,Experimental_Ascending_1,E-5,7341.163499979302,146404.7851000214,0
Vinh_Con1,Experimental_Ascending_1,5-octagon,6289.733899990097,152804.18960005045,0
Vinh_Con1,Experimental_Ascending_1,octagon-F,2693.480100017041,155609.1931000119,0
Vinh_Con1,Experimental_Ascending_1,F-6,566.100399941206,156251.87070004176,0
Vinh_Con1,Experimental_Descending_1,Start-octagon,12253.662400064059,12253.674700041302,0
Vinh_Con1,Experimental_Descending_1,octagon-F,5604.026400018483,18266.53040002566,0
Vinh_Con1,Experimental_Descending_1,F-6,3576.5662000048906,22016.320000053383,0
Vinh_Con1,Experimental_Descending_1,6-heptagon,4604.238100000657,26691.32140011061,0
Vinh_Con1,Experimental_Descending_1,heptagon-E,4880.740400054492,31907.107300008647,0
Vinh_Con1,Experimental_Descending_1,E-5,2601.785899954848,34601.34170006495,0
Vinh_Con1,Experimental_Descending_1,5-hexagon,5994.797499966808,40690.41860010475,0
Vinh_Con1,Experimental_Descending_1,hexagon-D,5823.016499984078,46659.31870008353,0
Vinh_Con1,Experimental_Descending_1,D-4,3703.184899990447,50445.596100063995,0
Vinh_Con1,Experimental_Descending_1,4-pentagon,4200.790099916048,54738.23420004919,0
Vinh_Con1,Experimental_Descending_1,pentagon-C,5315.607199911028,60206.99810003862,0
Vinh_Con1,Experimental_Descending_1,C-3,4132.571300026029,64531.422000029124,0
Vinh_Con1,Experimental_Descending_1,3-square,5202.601999975741,69850.88600008748,0
Vinh_Con1,Experimental_Descending_1,square-B,3581.7800000077114,73536.06030007359,0
Vinh_Con1,Experimental_Descending_1,B-2,1909.0688999276608,75524.21030006371,0
Vinh_Con1,Experimental_Descending_1,2-triangle,3218.6508000595495,78825.14900004026,0
Vinh_Con1,Experimental_Descending_1,triangle-A,966.5156000992283,79864.14830002468,0
Vinh_Con1,Experimental_Descending_1,A-1,616.4027999620885,80570.9262000164,0
Vinh_Con1,Experimental_Ascending_2,Start-A,23416.335799964145,23416.35519999545,0
Vinh_Con1,Experimental_Ascending_2,A-1,15330.596100073308,38867.851199931465,2
Vinh_Con1,Experimental_Ascending_2,1-triangle,5526.452400023118,44494.47379994672,0
Vinh_Con1,Experimental_Ascending_2,triangle-B,5300.66359997727,49864.06890000217,0
Vinh_Con1,Experimental_Ascending_2,B-2,2840.916099958122,52842.7067999728,0
Vinh_Con1,Experimental_Ascending_2,2-square,3867.219900013879,56817.07779993303,0
Vinh_Con1,Experimental_Ascending_2,square-C,5117.114000022411,62053.09870000929,0
Vinh_Con1,Experimental_Ascending_2,C-3,2064.057500101626,64273.70719995815,0
Vinh_Con1,Experimental_Ascending_2,3-pentagon,6808.2170999841765,71201.70259999577,0
Vinh_Con1,Experimental_Ascending_2,pentagon-D,6386.312099988572,77764.73249995615,0
Vinh_Con1,Experimental_Ascending_2,D-4,1923.9585999166593,79814.98989998363,0
Vinh_Con1,Experimental_Ascending_2,4-hexagon,8999.458700069226,88932.64489993453,0
Vinh_Con1,Experimental_Ascending_2,hexagon-E,16664.547199965455,105734.37770002056,0
Vinh_Con1,Experimental_Ascending_2,E-5,2847.457700059749,108729.49219995644,0
Vinh_Con1,Experimental_Ascending_2,5-heptagon,7506.337900063954,116360.32680002972,1
Vinh_Con1,Experimental_Ascending_2,heptagon-F,42971.97210008744,159502.83449993003,0
Vinh_Con1,Experimental_Ascending_2,F-6,1920.5985999433324,161539.01499998756,0
Vinh_Con1,Experimental_Ascending_2,6-octagon,3127.564699971117,164768.0836999789,0
Vinh_Con1,Experimental_Descending_2,Start-6,4539.24250009004,4539.2535999417305,0
Vinh_Con1,Experimental_Descending_2,6-octagon,3015.1681000133976,7719.554899958894,0
Vinh_Con1,Experimental_Descending_2,octagon-F,4665.741799981333,12567.078799940646,0
Vinh_Con1,Experimental_Descending_2,F-5,4720.355900004506,17404.9054000061,0
Vinh_Con1,Experimental_Descending_2,5-heptagon,13360.787700046785,30896.061899955384,0
Vinh_Con1,Experimental_Descending_2,heptagon-E,12595.814600004815,43927.178899990395,0
Vinh_Con1,Experimental_Descending_2,E-4,4701.806399971247,48767.77969999239,0
Vinh_Con1,Experimental_Descending_2,4-hexagon,3525.7216000463814,52528.24549993966,0
Vinh_Con1,Experimental_Descending_2,hexagon-D,6490.605800063349,59197.58039992303,0
Vinh_Con1,Experimental_Descending_2,D-3,10539.976399973966,69819.27239999641,0
Vinh_Con1,Experimental_Descending_2,3-pentagon,4577.222099993378,74463.93949992489,0
Vinh_Con1,Experimental_Descending_2,pentagon-C,4381.68140000198,78994.60229999386,0
Vinh_Con1,Experimental_Descending_2,C-2,3809.301699977368,82984.0528999921,0
Vinh_Con1,Experimental_Descending_2,2-square,2411.0753999557346,85489.71500003245,0
Vinh_Con1,Experimental_Descending_2,square-B,2237.687399960123,87843.11210003216,0
Vinh_Con1,Experimental_Descending_2,B-1,2517.92040001601,90478.84130000602,0
Vinh_Con1,Experimental_Descending_2,1-triangle,1678.7008999381214,92286.31049999967,1
Vinh_Con1,Experimental_Descending_2,triangle-A,2849.3089999537915,95252.15900002513,0
Vinh_Con1,Experimental_Ascending_3,Start-1,4335.5961999623105,4335.606699925847,0
Vinh_Con1,Experimental_Ascending_3,1-triangle,2606.2268000096083,7041.483699926175,0
Vinh_Con1,Experimental_Ascending_3,triangle-A,8828.058600076474,15985.485999961384,0
Vinh_Con1,Experimental_Ascending_3,A-2,4042.3628999851644,20127.96419998631,0
Vinh_Con1,Experimental_Ascending_3,2-square,3703.205900033936,23956.280599930324,0
Vinh_Con1,Experimental_Ascending_3,square-B,4046.183199970983,28152.687199995853,0
Vinh_Con1,Experimental_Ascending_3,B-3,2294.558700057678,30554.34689996764,0
Vinh_Con1,Experimental_Ascending_3,3-pentagon,3442.713199998252,34182.31109995395,0
Vinh_Con1,Experimental_Ascending_3,pentagon-C,3963.0722000729293,38261.29149994813,0
Vinh_Con1,Experimental_Ascending_3,C-4,8281.561100040562,46642.30870001484,0
Vinh_Con1,Experimental_Ascending_3,4-hexagon,3702.841200050898,50446.791899972595,0
Vinh_Con1,Experimental_Ascending_3,hexagon-D,3863.5892999591306,55797.040799981914,0
Vinh_Con1,Experimental_Ascending_3,D-5,4234.212000039406,60384.17530001607,0
Vinh_Con1,Experimental_Ascending_3,5-heptagon,2246.923999977298,62757.04739999492,0
Vinh_Con1,Experimental_Ascending_3,heptagon-E,4299.885299988091,67137.80969998334,0
Vinh_Con1,Experimental_Ascending_3,E-6,2263.6522999964654,69480.7884999318,0
Vinh_Con1,Experimental_Ascending_3,6-octagon,1266.289500053972,70850.94269993715,0
Vinh_Con1,Experimental_Ascending_3,octagon-F,991.4223001105711,71901.09349996783,0
Vinh_Con1,Experimental_Descending_3,Start-F,6104.710299987346,6104.720799950883,0
Vinh_Con1,Experimental_Descending_3,F-6,2930.851500015706,9148.446299950592,0
Vinh_Con1,Experimental_Descending_3,6-octagon,10562.581800040789,19858.973699971102,0
Vinh_Con1,Experimental_Descending_3,octagon-E,5696.761100087315,25669.095399905927,0
Vinh_Con1,Experimental_Descending_3,E-5,2845.8890001056716,28681.80349993054,0
Vinh_Con1,Experimental_Descending_3,5-heptagon,8708.41549988836,37546.9274999341,0
Vinh_Con1,Experimental_Descending_3,heptagon-D,4775.896199978888,42477.52409998793,0
Vinh_Con1,Experimental_Descending_3,D-4,1659.5771999564022,44287.8068999853,0
Vinh_Con1,Experimental_Descending_3,4-hexagon,3430.349599919282,47819.878899957985,0
Vinh_Con1,Experimental_Descending_3,hexagon-C,4812.265099957585,52748.020999948494,0
Vinh_Con1,Experimental_Descending_3,C-3,3480.5202999850735,56363.744399975985,0
Vinh_Con1,Experimental_Descending_3,3-pentagon,2827.6057000039145,59298.15689998213,0
Vinh_Con1,Experimental_Descending_3,pentagon-B,4812.310000066645,64214.841199922375,0
Vinh_Con1,Experimental_Descending_3,B-2,2052.4826999753714,66338.56619999278,0
Vinh_Con1,Experimental_Descending_3,2-square,3202.711799996905,69661.08109999914,0
Vinh_Con1,Experimental_Descending_3,square-A,7937.217200058512,77694.47119999677,0
Vinh_Con1,Experimental_Descending_3,A-1,3654.128900030628,81512.27690000087,0
Vinh_Con1,Experimental_Descending_3,1-triangle,1209.54240008723,82812.3674999224,0
